{
  "resourceType": "Bundle",
  "id": "AllConsentsForTemplate-response-example-1",
  "type": "collection",
  "entry": [
    {
      "resource": {
        "resourceType": "Bundle",
        "id": "6ed0379b-478e-4db4-b226-3edb6897aec1",
        "type": "collection",
        "entry": [
          {
            "resource": {
              "resourceType": "QuestionnaireResponse",
              "id": "2814dd4c-98fe-49a2-9df9-8fd6e9752725",
              "meta": {
                "lastUpdated": "2021-05-19T17:50:23.000+02:00",
                "profile": [
                  "http://fhir.de/ConsentManagement/StructureDefinition/QuestionnaireResponse"
                ]
              },
              "language": "DE",
              "questionnaire": "https://ths-greifswald.de/fhir/gics/QuestionnaireComposed/MII/Patienteneinwilligung+MII|1.6.f",
              "status": "completed",
              "subject": {
                "reference": "Patient/6a49f9c8-9986-4bbf-9bb6-17a083b85515",
                "display": "Pseudonym dic_1H51T"
              },
              "authored": "2021-05-19T00:00:00+02:00",
              "author": {
                "reference": "Patient/6a49f9c8-9986-4bbf-9bb6-17a083b85515",
                "display": "Pseudonym dic_1H51T"
              },
              "source": {
                "reference": "Patient/6a49f9c8-9986-4bbf-9bb6-17a083b85515",
                "display": "Pseudonym dic_1H51T"
              },
              "item": [
                {
                  "linkId": "PATDAT_erheben_speichern_nutzen|1.6",
                  "answer": [
                    {
                      "valueCoding": {
                        "code": "2.16.840.1.113883.3.1937.777.24.5.2.1",
                        "system": "urn:oid:2.16.840.1.113883.3.1937.777.24.5.2",
                        "display": "gültig"
                      }
                    }
                  ]
                },
                {
                  "linkId": "KKDAT_retrospektiv_uebertragen_speichern_nutzen|1.6",
                  "answer": [
                    {
                      "valueCoding": {
                        "code": "2.16.840.1.113883.3.1937.777.24.5.2.2",
                        "system": "urn:oid:2.16.840.1.113883.3.1937.777.24.5.2",
                        "display": "ungültig"
                      }
                    }
                  ]
                },
                {
                  "linkId": "KKDAT_prospektiv_uebertragen_speichern_nutzen|1.6",
                  "answer": [
                    {
                      "valueCoding": {
                        "code": "2.16.840.1.113883.3.1937.777.24.5.2.2",
                        "system": "urn:oid:2.16.840.1.113883.3.1937.777.24.5.2",
                        "display": "ungültig"
                      }
                    }
                  ]
                },
                {
                  "linkId": "BIOMAT_erheben_lagern_nutzen|1.6",
                  "answer": [
                    {
                      "valueCoding": {
                        "code": "2.16.840.1.113883.3.1937.777.24.5.2.2",
                        "system": "urn:oid:2.16.840.1.113883.3.1937.777.24.5.2",
                        "display": "ungültig"
                      }
                    }
                  ]
                },
                {
                  "linkId": "BIOMAT_Zusatzentnahme|1.6",
                  "answer": [
                    {
                      "valueCoding": {
                        "code": "2.16.840.1.113883.3.1937.777.24.5.2.2",
                        "system": "urn:oid:2.16.840.1.113883.3.1937.777.24.5.2",
                        "display": "ungültig"
                      }
                    }
                  ]
                },
                {
                  "linkId": "Rekontaktierung_Ergaenzungen|1.6",
                  "answer": [
                    {
                      "valueCoding": {
                        "code": "2.16.840.1.113883.3.1937.777.24.5.2.1",
                        "system": "urn:oid:2.16.840.1.113883.3.1937.777.24.5.2",
                        "display": "gültig"
                      }
                    }
                  ]
                },
                {
                  "linkId": "Rekontaktierung_Zusatzbefund|1.6",
                  "answer": [
                    {
                      "valueCoding": {
                        "code": "2.16.840.1.113883.3.1937.777.24.5.2.1",
                        "system": "urn:oid:2.16.840.1.113883.3.1937.777.24.5.2",
                        "display": "gültig"
                      }
                    }
                  ]
                },
                {
                  "linkId": "Z1_GECCO83_Nutzung_NUM_CODEX|1.0",
                  "answer": [
                    {
                      "valueCoding": {
                        "code": "2.16.840.1.113883.3.1937.777.24.5.2.1",
                        "system": "urn:oid:2.16.840.1.113883.3.1937.777.24.5.2",
                        "display": "gültig"
                      }
                    }
                  ]
                },
                {
                  "linkId": "Z1_GECCO83_Weitergabe_NUM_CODEX_EU_DSGVO_nonkonform|1.0",
                  "answer": [
                    {
                      "valueCoding": {
                        "code": "2.16.840.1.113883.3.1937.777.24.5.2.2",
                        "system": "urn:oid:2.16.840.1.113883.3.1937.777.24.5.2",
                        "display": "ungültig"
                      }
                    }
                  ]
                }
              ]
            },
            "fullUrl": "urn:uuid:2814dd4c-98fe-49a2-9df9-8fd6e9752725"
          },
          {
            "resource": {
              "resourceType": "Consent",
              "id": "4638ac78-3d25-4610-a328-e4b145284573",
              "meta": {
                "lastUpdated": "2021-05-19T17:50:23.000+02:00",
                "profile": [
                  "https://ths-greifswald.de/fhir/StructureDefinition/gics/Consent",
                  "http://fhir.de/ConsentManagement/StructureDefinition/Consent"
                ]
              },
              "extension": [
                {
                  "extension": [
                    {
                      "url": "domain",
                      "valueReference": {
                        "reference": "ResearchStudy/593d66f3-3654-4e8a-9524-3bcd78a363bb"
                      }
                    },
                    {
                      "url": "status",
                      "valueCoding": {
                        "code": "active",
                        "system": "http://hl7.org/fhir/publication-status"
                      }
                    }
                  ],
                  "url": "http://fhir.de/ConsentManagement/StructureDefinition/DomainReference"
                }
              ],
              "status": "active",
              "scope": {
                "coding": [
                  {
                    "code": "research",
                    "system": "http://terminology.hl7.org/CodeSystem/consentscope"
                  }
                ]
              },
              "category": [
                {
                  "coding": [
                    {
                      "code": "57016-8",
                      "system": "http://loinc.org"
                    }
                  ]
                }
              ],
              "patient": {
                "reference": "Patient/6a49f9c8-9986-4bbf-9bb6-17a083b85515",
                "display": "Pseudonym dic_1H51T"
              },
              "dateTime": "2021-05-19T00:00:00+02:00",
              "organization": [
                {
                  "display": "MII"
                }
              ],
              "sourceReference": {
                "reference": "QuestionnaireResponse/dfd5edc6-3a8a-4796-a9bb-f9572cf15c96"
              },
              "provision": {
                "type": "deny",
                "period": {
                  "start": "2021-05-19T17:50:22+02:00",
                  "end": "2051-05-19T17:50:23+02:00"
                },
                "provision": [
                  {
                    "type": "permit",
                    "period": {
                      "start": "2021-05-19T17:50:22+02:00",
                      "end": "2051-05-19T17:50:23+02:00"
                    },
                    "code": [
                      {
                        "coding": [
                          {
                            "code": "IDAT_bereitstellen_EU_DSGVO_NIVEAU",
                            "system": "https://ths-greifswald.de/fhir/CodeSystem/gics/Policy",
                            "display": "Herausgabe identifizierender Daten (IDAT)[...]"
                          }
                        ]
                      },
                      {
                        "coding": [
                          {
                            "code": "2.16.840.1.113883.3.1937.777.24.5.3.5",
                            "system": "urn:oid:2.16.840.1.113883.3.1937.777.24.5.3"
                          }
                        ]
                      }
                    ]
                  },
                  {
                    "type": "permit",
                    "period": {
                      "start": "2021-05-19T17:50:22+02:00",
                      "end": "2051-05-19T17:50:23+02:00"
                    },
                    "code": [
                      {
                        "coding": [
                          {
                            "code": "IDAT_erheben",
                            "system": "https://ths-greifswald.de/fhir/CodeSystem/gics/Policy",
                            "display": "Erfassung neuer identifizierender Daten (IDAT)"
                          }
                        ]
                      },
                      {
                        "coding": [
                          {
                            "code": "2.16.840.1.113883.3.1937.777.24.5.3.2",
                            "system": "urn:oid:2.16.840.1.113883.3.1937.777.24.5.3"
                          }
                        ]
                      }
                    ]
                  },
                  {
                    "type": "permit",
                    "period": {
                      "start": "2021-05-19T17:50:22+02:00",
                      "end": "2051-05-19T17:50:23+02:00"
                    },
                    "code": [
                      {
                        "coding": [
                          {
                            "code": "IDAT_speichern_verarbeiten",
                            "system": "https://ths-greifswald.de/fhir/CodeSystem/gics/Policy",
                            "display": "Speicherung und Verarbeitung identifizierender Daten (IDAT)[...]"
                          }
                        ]
                      },
                      {
                        "coding": [
                          {
                            "code": "2.16.840.1.113883.3.1937.777.24.5.3.3",
                            "system": "urn:oid:2.16.840.1.113883.3.1937.777.24.5.3"
                          }
                        ]
                      }
                    ]
                  },
                  {
                    "type": "permit",
                    "period": {
                      "start": "2021-05-19T17:50:22+02:00",
                      "end": "2051-05-19T17:50:23+02:00"
                    },
                    "code": [
                      {
                        "coding": [
                          {
                            "code": "IDAT_zusammenfuehren_Dritte",
                            "system": "https://ths-greifswald.de/fhir/CodeSystem/gics/Policy",
                            "display": "Zusammenführung identifizierender Daten (IDAT)[...]"
                          }
                        ]
                      },
                      {
                        "coding": [
                          {
                            "code": "2.16.840.1.113883.3.1937.777.24.5.3.4",
                            "system": "urn:oid:2.16.840.1.113883.3.1937.777.24.5.3"
                          }
                        ]
                      }
                    ]
                  },
                  {
                    "type": "permit",
                    "period": {
                      "start": "2021-05-19T17:50:22+02:00",
                      "end": "2051-05-19T17:50:23+02:00"
                    },
                    "code": [
                      {
                        "coding": [
                          {
                            "code": "MDAT_erheben",
                            "system": "https://ths-greifswald.de/fhir/CodeSystem/gics/Policy",
                            "display": "Erfassung medizinischer Daten"
                          }
                        ]
                      },
                      {
                        "coding": [
                          {
                            "code": "2.16.840.1.113883.3.1937.777.24.5.3.6",
                            "system": "urn:oid:2.16.840.1.113883.3.1937.777.24.5.3"
                          }
                        ]
                      }
                    ]
                  },
                  {
                    "type": "permit",
                    "period": {
                      "start": "2021-05-19T17:50:22+02:00",
                      "end": "2051-05-19T17:50:23+02:00"
                    },
                    "code": [
                      {
                        "coding": [
                          {
                            "code": "MDAT_speichern_verarbeiten",
                            "system": "https://ths-greifswald.de/fhir/CodeSystem/gics/Policy",
                            "display": "Speicherung_Verarbeitung von medizinischen Daten[...]"
                          }
                        ]
                      },
                      {
                        "coding": [
                          {
                            "code": "2.16.840.1.113883.3.1937.777.24.5.3.7",
                            "system": "urn:oid:2.16.840.1.113883.3.1937.777.24.5.3"
                          }
                        ]
                      }
                    ]
                  },
                  {
                    "type": "permit",
                    "period": {
                      "start": "2021-05-19T17:50:22+02:00",
                      "end": "2051-05-19T17:50:23+02:00"
                    },
                    "code": [
                      {
                        "coding": [
                          {
                            "code": "MDAT_wissenschaftlich_nutzen_EU_DSGVO_NIVEAU",
                            "system": "https://ths-greifswald.de/fhir/CodeSystem/gics/Policy",
                            "display": "Bereitstellung medizinischer Daten (MDAT)[...]"
                          }
                        ]
                      },
                      {
                        "coding": [
                          {
                            "code": "2.16.840.1.113883.3.1937.777.24.5.3.8",
                            "system": "urn:oid:2.16.840.1.113883.3.1937.777.24.5.3"
                          }
                        ]
                      }
                    ]
                  },
                  {
                    "type": "permit",
                    "period": {
                      "start": "2021-05-19T17:50:22+02:00",
                      "end": "2051-05-19T17:50:23+02:00"
                    },
                    "code": [
                      {
                        "coding": [
                          {
                            "code": "MDAT_zusammenfuehren_Dritte",
                            "system": "https://ths-greifswald.de/fhir/CodeSystem/gics/Policy",
                            "display": "Zusammenführung medizinischer Daten (MDAT)[...]"
                          }
                        ]
                      },
                      {
                        "coding": [
                          {
                            "code": "2.16.840.1.113883.3.1937.777.24.5.3.9",
                            "system": "urn:oid:2.16.840.1.113883.3.1937.777.24.5.3"
                          }
                        ]
                      }
                    ]
                  },
                  {
                    "type": "permit",
                    "period": {
                      "start": "2021-05-19T17:50:22+02:00",
                      "end": "2051-05-19T17:50:23+02:00"
                    },
                    "code": [
                      {
                        "coding": [
                          {
                            "code": "Rekontaktierung_Verknuepfung_Datenbanken",
                            "system": "https://ths-greifswald.de/fhir/CodeSystem/gics/Policy",
                            "display": "Rekontaktierung zur Verknüpfung[...]"
                          }
                        ]
                      },
                      {
                        "coding": [
                          {
                            "code": "2.16.840.1.113883.3.1937.777.24.5.3.27",
                            "system": "urn:oid:2.16.840.1.113883.3.1937.777.24.5.3"
                          }
                        ]
                      }
                    ]
                  },
                  {
                    "type": "permit",
                    "period": {
                      "start": "2021-05-19T17:50:22+02:00",
                      "end": "2051-05-19T17:50:23+02:00"
                    },
                    "code": [
                      {
                        "coding": [
                          {
                            "code": "Rekontaktierung_weitere_Erhebung",
                            "system": "https://ths-greifswald.de/fhir/CodeSystem/gics/Policy",
                            "display": "Rekontaktierung bezüglich Erhebung zusätzlicher Daten"
                          }
                        ]
                      },
                      {
                        "coding": [
                          {
                            "code": "2.16.840.1.113883.3.1937.777.24.5.3.28",
                            "system": "urn:oid:2.16.840.1.113883.3.1937.777.24.5.3"
                          }
                        ]
                      }
                    ]
                  },
                  {
                    "type": "permit",
                    "period": {
                      "start": "2021-05-19T17:50:22+02:00",
                      "end": "2051-05-19T17:50:23+02:00"
                    },
                    "code": [
                      {
                        "coding": [
                          {
                            "code": "Rekontaktierung_weitere_Studien",
                            "system": "https://ths-greifswald.de/fhir/CodeSystem/gics/Policy",
                            "display": "Rekontaktierung bezüglich Information[...]"
                          }
                        ]
                      },
                      {
                        "coding": [
                          {
                            "code": "2.16.840.1.113883.3.1937.777.24.5.3.29",
                            "system": "urn:oid:2.16.840.1.113883.3.1937.777.24.5.3"
                          }
                        ]
                      }
                    ]
                  },
                  {
                    "type": "permit",
                    "period": {
                      "start": "2021-05-19T17:50:22+02:00",
                      "end": "2051-05-19T17:50:23+02:00"
                    },
                    "code": [
                      {
                        "coding": [
                          {
                            "code": "MDAT_GECCO83_bereitstellen_NUM_CODEX",
                            "system": "https://ths-greifswald.de/fhir/CodeSystem/gics/Policy",
                            "display": "Medizinische Daten des GECCO83 Datensatz[...]"
                          }
                        ]
                      },
                      {
                        "coding": [
                          {
                            "code": "2.16.840.1.113883.3.1937.777.24.5.3.33",
                            "system": "urn:oid:2.16.840.1.113883.3.1937.777.24.5.3"
                          }
                        ]
                      }
                    ]
                  },
                  {
                    "type": "permit",
                    "period": {
                      "start": "2021-05-19T17:50:22+02:00",
                      "end": "2051-05-19T17:50:23+02:00"
                    },
                    "code": [
                      {
                        "coding": [
                          {
                            "code": "MDAT_GECCO83_speichern_verarbeiten_NUM_CODEX",
                            "system": "https://ths-greifswald.de/fhir/CodeSystem/gics/Policy",
                            "display": "Medizinische Daten des GECCO83 Datensatz[...]"
                          }
                        ]
                      },
                      {
                        "coding": [
                          {
                            "code": "2.16.840.1.113883.3.1937.777.24.5.3.34",
                            "system": "urn:oid:2.16.840.1.113883.3.1937.777.24.5.3"
                          }
                        ]
                      }
                    ]
                  },
                  {
                    "type": "permit",
                    "period": {
                      "start": "2021-05-19T17:50:22+02:00",
                      "end": "2051-05-19T17:50:23+02:00"
                    },
                    "code": [
                      {
                        "coding": [
                          {
                            "code": "MDAT_GECCO83_wissenschaftlich_nutzen_COVID_19_Forschung_EU_DSGVO_konform",
                            "system": "https://ths-greifswald.de/fhir/CodeSystem/gics/Policy/MII",
                            "display": "Nutzung des Covid-19-Datensatzes[...]"
                          }
                        ]
                      }
                    ]
                  },
                  {
                    "type": "permit",
                    "period": {
                      "start": "2021-05-19T17:50:22+02:00",
                      "end": "2051-05-19T17:50:23+02:00"
                    },
                    "code": [
                      {
                        "coding": [
                          {
                            "code": "MDAT_GECCO83_wissenschaftlich_nutzen_Pandemie_Forschung_EU_DSGVO_konform",
                            "system": "https://ths-greifswald.de/fhir/CodeSystem/gics/Policy/MII",
                            "display": "Nutzung des Covid-19-Datensatzes[...]"
                          }
                        ]
                      }
                    ]
                  },
                  {
                    "type": "permit",
                    "period": {
                      "start": "2021-05-19T17:50:22+02:00",
                      "end": "2051-05-19T17:50:23+02:00"
                    },
                    "code": [
                      {
                        "coding": [
                          {
                            "code": "Rekontaktierung_Zusatzbefund",
                            "system": "https://ths-greifswald.de/fhir/CodeSystem/gics/Policy/MII",
                            "display": "Rekontaktierung bezüglich Zusatzbefund"
                          }
                        ]
                      },
                      {
                        "coding": [
                          {
                            "code": "2.16.840.1.113883.3.1937.777.24.5.3.31",
                            "system": "urn:oid:2.16.840.1.113883.3.1937.777.24.5.3"
                          }
                        ]
                      }
                    ]
                  }
                ]
              }
            },
            "fullUrl": "urn:uuid:4638ac78-3d25-4610-a328-e4b145284573"
          },
          {
            "resource": {
              "resourceType": "Provenance",
              "id": "16d0ca6d-1e36-4511-9bfe-f6e2a0606973",
              "meta": {
                "lastUpdated": "2021-05-19T17:50:23.000+02:00",
                "profile": [
                  "http://fhir.de/ConsentManagement/StructureDefinition/Provenance"
                ]
              },
              "target": [
                {
                  "reference": "Consent/4638ac78-3d25-4610-a328-e4b145284573"
                }
              ],
              "recorded": "2021-05-19T17:50:23.000+02:00",
              "location": {
                "display": "Erlangen"
              },
              "agent": [
                {
                  "who": {
                    "display": "https://ths-greifswald.de/gics"
                  }
                }
              ],
              "signature": [
                {
                  "type": [
                    {
                      "code": "1.2.840.10065.1.12.1.7",
                      "system": "urn:iso-astm:E1762-95:2013",
                      "display": "Consent Signature"
                    }
                  ],
                  "when": "2021-05-19T00:00:00.000+02:00",
                  "who": {
                    "reference": "Patient/6a49f9c8-9986-4bbf-9bb6-17a083b85515",
                    "display": "Pseudonym dic_1H51T"
                  },
                  "data": "ZHVtbXky"
                },
                {
                  "type": [
                    {
                      "code": "1.2.840.10065.1.12.1.5",
                      "system": "urn:iso-astm:E1762-95:2013",
                      "display": "Verification Signature"
                    }
                  ],
                  "when": "2021-05-19T00:00:00.000+02:00",
                  "who": {
                    "display": "arzt_12345"
                  },
                  "data": "ZHVtbXk="
                }
              ]
            },
            "fullUrl": "urn:uuid:16d0ca6d-1e36-4511-9bfe-f6e2a0606973"
          },
          {
            "resource": {
              "resourceType": "Patient",
              "id": "6a49f9c8-9986-4bbf-9bb6-17a083b85515",
              "meta": {
                "lastUpdated": "2021-05-19T17:50:23.000+02:00",
                "profile": [
                  "https://ths-greifswald.de/fhir/StructureDefinition/epix/Patient",
                  "http://fhir.de/ConsentManagement/StructureDefinition/Patient"
                ]
              },
              "identifier": [
                {
                  "type": {
                    "coding": [
                      {
                        "code": "ANON",
                        "system": "http://hl7.org/fhir/v2/0203/",
                        "display": "Anonymous identifier"
                      }
                    ]
                  },
                  "system": "https://ths-greifswald.de/fhir/gics/identifiers/Pseudonym",
                  "value": "dic_1H51T"
                }
              ]
            },
            "fullUrl": "urn:uuid:6a49f9c8-9986-4bbf-9bb6-17a083b85515"
          }
        ]
      },
      "fullUrl": "urn:uuid:6ed0379b-478e-4db4-b226-3edb6897aec1"
    }
  ]
}
