{
  "resourceType": "Bundle",
  "id": "AddConsent-response-example-1",
  "type": "collection",
  "entry": [
    {
      "resource": {
        "resourceType": "QuestionnaireResponse",
        "id": "bd56b7e3-336c-49a6-aa31-1987b02f26cf",
        "meta": {
          "lastUpdated": "2023-02-28T16:59:47.654+01:00",
          "profile": [
            "http://fhir.de/ConsentManagement/StructureDefinition/QuestionnaireResponse"
          ]
        },
        "language": "DE",
        "questionnaire": "https://ths-greifswald.de/fhir/gics/QuestionnaireComposed/MII/Patienteneinwilligung+MII|1.6.d",
        "status": "completed",
        "subject": {
          "reference": "Patient/71e9be08-86ef-4403-9770-fbbfcdd3589c",
          "display": "Pseudonym studypsn1"
        },
        "authored": "2022-12-21T00:00:00+01:00",
        "author": {
          "reference": "Patient/71e9be08-86ef-4403-9770-fbbfcdd3589c",
          "display": "Pseudonym studypsn1"
        },
        "source": {
          "reference": "Patient/71e9be08-86ef-4403-9770-fbbfcdd3589c",
          "display": "Pseudonym studypsn1"
        },
        "item": [
          {
            "linkId": "KKDAT_prospektiv_uebertragen_speichern_nutzen|1.8",
            "answer": [
              {
                "valueCoding": {
                  "code": "2.16.840.1.113883.3.1937.777.24.5.2.2",
                  "system": "urn:oid:2.16.840.1.113883.3.1937.777.24.5.2",
                  "display": "ungültig"
                }
              }
            ]
          },
          {
            "linkId": "PATDAT_erheben_speichern_nutzen|1.8",
            "answer": [
              {
                "valueCoding": {
                  "code": "2.16.840.1.113883.3.1937.777.24.5.2.1",
                  "system": "urn:oid:2.16.840.1.113883.3.1937.777.24.5.2",
                  "display": "gültig"
                }
              }
            ]
          },
          {
            "linkId": "BIOMAT_erheben_lagern_nutzen|1.8",
            "answer": [
              {
                "valueCoding": {
                  "code": "2.16.840.1.113883.3.1937.777.24.5.2.2",
                  "system": "urn:oid:2.16.840.1.113883.3.1937.777.24.5.2",
                  "display": "ungültig"
                }
              }
            ]
          },
          {
            "linkId": "Rekontaktierung_Ergaenzungen|1.7",
            "answer": [
              {
                "valueCoding": {
                  "code": "2.16.840.1.113883.3.1937.777.24.5.2.1",
                  "system": "urn:oid:2.16.840.1.113883.3.1937.777.24.5.2",
                  "display": "gültig"
                }
              }
            ]
          },
          {
            "linkId": "BIOMAT_Zusatzentnahme|1.8",
            "answer": [
              {
                "valueCoding": {
                  "code": "2.16.840.1.113883.3.1937.777.24.5.2.2",
                  "system": "urn:oid:2.16.840.1.113883.3.1937.777.24.5.2",
                  "display": "ungültig"
                }
              }
            ]
          },
          {
            "linkId": "KKDAT_retrospektiv_uebertragen_speichern_nutzen|1.8",
            "answer": [
              {
                "valueCoding": {
                  "code": "2.16.840.1.113883.3.1937.777.24.5.2.2",
                  "system": "urn:oid:2.16.840.1.113883.3.1937.777.24.5.2",
                  "display": "ungültig"
                }
              }
            ]
          },
          {
            "linkId": "Rekontaktierung_Zusatzbefund|1.8",
            "answer": [
              {
                "valueCoding": {
                  "code": "2.16.840.1.113883.3.1937.777.24.5.2.1",
                  "system": "urn:oid:2.16.840.1.113883.3.1937.777.24.5.2",
                  "display": "gültig"
                }
              }
            ]
          }
        ]
      }
    },
    {
      "resource": {
        "resourceType": "Consent",
        "id": "538cdfee-dc99-4a2f-bacc-3144e57e811d",
        "meta": {
          "lastUpdated": "2023-02-28T16:59:47.654+01:00",
          "profile": [
            "https://ths-greifswald.de/fhir/StructureDefinition/gics/Consent"
          ]
        },
        "extension": [
          {
            "url": "http://fhir.de/ConsentManagement/StructureDefinition/DomainReference",
            "extension": [
              {
                "url": "domain",
                "valueReference": {
                  "reference": "ResearchStudy/627163a2-ed92-41c7-91e3-0b134127b47b"
                }
              },
              {
                "url": "status",
                "valueCoding": {
                  "code": "active",
                  "system": "http://hl7.org/fhir/publication-status"
                }
              }
            ]
          }
        ],
        "status": "active",
        "scope": {
          "coding": [
            {
              "code": "research",
              "system": "http://terminology.hl7.org/CodeSystem/consentscope"
            }
          ]
        },
        "category": [
          {
            "coding": [
              {
                "code": "57016-8",
                "system": "http://loinc.org"
              }
            ]
          }
        ],
        "patient": {
          "reference": "Patient/71e9be08-86ef-4403-9770-fbbfcdd3589c",
          "display": "Pseudonym studypsn1"
        },
        "dateTime": "2022-12-21T00:00:00+01:00",
        "organization": [
          {
            "display": "MII"
          }
        ],
        "sourceReference": {
          "reference": "QuestionnaireResponse/bd56b7e3-336c-49a6-aa31-1987b02f26cf"
        },
        "policyRule": {
          "text": "Patienteneinwilligung MII|1.6.d"
        },
        "provision": {
          "type": "deny",
          "period": {
            "start": "2022-12-21T00:00:00+01:00",
            "end": "2052-12-21T00:00:00+01:00"
          },
          "provision": [
            {
              "type": "permit",
              "period": {
                "start": "2022-12-21T00:00:00+01:00",
                "end": "2052-12-21T00:00:00+01:00"
              },
              "code": [
                {
                  "coding": [
                    {
                      "code": "IDAT_bereitstellen_EU_DSGVO_konform",
                      "system": "https://ths-greifswald.de/fhir/CodeSystem/gics/Policy/MII",
                      "display": "Herausgabe identifizierender Daten (IDAT) an unabhängige Treuhandstelle zur weiteren Verarbeitung"
                    }
                  ]
                },
                {
                  "coding": [
                    {
                      "code": "2.16.840.1.113883.3.1937.777.24.5.3.5",
                      "system": "urn:oid:2.16.840.1.113883.3.1937.777.24.5.3",
                      "display": "IDAT_bereitstellen_EU_DSGVO_NIVEAU"
                    }
                  ]
                }
              ]
            },
            {
              "type": "permit",
              "period": {
                "start": "2022-12-21T00:00:00+01:00",
                "end": "2052-12-21T00:00:00+01:00"
              },
              "code": [
                {
                  "coding": [
                    {
                      "code": "IDAT_erheben",
                      "system": "https://ths-greifswald.de/fhir/CodeSystem/gics/Policy",
                      "display": "Erfassung neuer identifizierender Daten (IDAT)"
                    }
                  ]
                },
                {
                  "coding": [
                    {
                      "code": "2.16.840.1.113883.3.1937.777.24.5.3.2",
                      "system": "urn:oid:2.16.840.1.113883.3.1937.777.24.5.3",
                      "display": "IDAT_erheben"
                    }
                  ]
                }
              ]
            },
            {
              "type": "permit",
              "period": {
                "start": "2022-12-21T00:00:00+01:00",
                "end": "2052-12-21T00:00:00+01:00"
              },
              "code": [
                {
                  "coding": [
                    {
                      "code": "IDAT_speichern_verarbeiten",
                      "system": "https://ths-greifswald.de/fhir/CodeSystem/gics/Policy",
                      "display": "Speicherung und Verarbeitung identifizierender Daten (IDAT) zu Zwecken med. Forschung in der verantwortlichen Stelle"
                    }
                  ]
                },
                {
                  "coding": [
                    {
                      "code": "2.16.840.1.113883.3.1937.777.24.5.3.3",
                      "system": "urn:oid:2.16.840.1.113883.3.1937.777.24.5.3",
                      "display": "IDAT_speichern_verarbeiten"
                    }
                  ]
                }
              ]
            },
            {
              "type": "permit",
              "period": {
                "start": "2022-12-21T00:00:00+01:00",
                "end": "2052-12-21T00:00:00+01:00"
              },
              "code": [
                {
                  "coding": [
                    {
                      "code": "IDAT_zusammenfuehren_Dritte",
                      "system": "https://ths-greifswald.de/fhir/CodeSystem/gics/Policy",
                      "display": "Zusammenführung identifizierender Daten (IDAT) über die unabhängige Treuhandstelle mit Dritten Forschungspartnern, sofern dort eine Einwilligung vorliegt"
                    }
                  ]
                },
                {
                  "coding": [
                    {
                      "code": "2.16.840.1.113883.3.1937.777.24.5.3.4",
                      "system": "urn:oid:2.16.840.1.113883.3.1937.777.24.5.3",
                      "display": "IDAT_zusammenfuehren_Dritte"
                    }
                  ]
                }
              ]
            },
            {
              "type": "permit",
              "period": {
                "start": "2022-12-21T00:00:00+01:00",
                "end": "2027-12-21T00:00:00+01:00"
              },
              "code": [
                {
                  "coding": [
                    {
                      "code": "MDAT_erheben",
                      "system": "https://ths-greifswald.de/fhir/CodeSystem/gics/Policy",
                      "display": "Erfassung medizinischer Daten (MDAT)"
                    }
                  ]
                },
                {
                  "coding": [
                    {
                      "code": "2.16.840.1.113883.3.1937.777.24.5.3.6",
                      "system": "urn:oid:2.16.840.1.113883.3.1937.777.24.5.3",
                      "display": "MDAT_erheben"
                    }
                  ]
                }
              ]
            },
            {
              "type": "permit",
              "period": {
                "start": "2022-12-21T00:00:00+01:00",
                "end": "2052-12-21T00:00:00+01:00"
              },
              "code": [
                {
                  "coding": [
                    {
                      "code": "MDAT_speichern_verarbeiten",
                      "system": "https://ths-greifswald.de/fhir/CodeSystem/gics/Policy",
                      "display": "Speicherung und Verarbeitung von medizinischen codierten Daten zu Zwecken med. Forschung innerhalb der verantwortlichen Stelle (MDAT)"
                    }
                  ]
                },
                {
                  "coding": [
                    {
                      "code": "2.16.840.1.113883.3.1937.777.24.5.3.7",
                      "system": "urn:oid:2.16.840.1.113883.3.1937.777.24.5.3",
                      "display": "MDAT_speichern_verarbeiten"
                    }
                  ]
                }
              ]
            },
            {
              "type": "permit",
              "period": {
                "start": "2022-12-21T00:00:00+01:00",
                "end": "2052-12-21T00:00:00+01:00"
              },
              "code": [
                {
                  "coding": [
                    {
                      "code": "MDAT_wissenschaftlich_nutzen_EU_DSGVO_konform",
                      "system": "https://ths-greifswald.de/fhir/CodeSystem/gics/Policy/MII",
                      "display": "Bereitstellung umcodierter medizinischer Daten (MDAT) für wissenschaftliche Nutzung zu Zwecken med. Forschung an externe Forscher"
                    }
                  ]
                },
                {
                  "coding": [
                    {
                      "code": "2.16.840.1.113883.3.1937.777.24.5.3.8",
                      "system": "urn:oid:2.16.840.1.113883.3.1937.777.24.5.3",
                      "display": "MDAT_wissenschaftlich_nutzen_EU_DSGVO_NIVEAU"
                    }
                  ]
                }
              ]
            },
            {
              "type": "permit",
              "period": {
                "start": "2022-12-21T00:00:00+01:00",
                "end": "2052-12-21T00:00:00+01:00"
              },
              "code": [
                {
                  "coding": [
                    {
                      "code": "MDAT_zusammenfuehren_Dritte",
                      "system": "https://ths-greifswald.de/fhir/CodeSystem/gics/Policy",
                      "display": "Zusammenführung medizinischer Daten (MDAT) mit Dritten Forschungspartnern, sofern dort eine Einwilligung vorliegt"
                    }
                  ]
                },
                {
                  "coding": [
                    {
                      "code": "2.16.840.1.113883.3.1937.777.24.5.3.9",
                      "system": "urn:oid:2.16.840.1.113883.3.1937.777.24.5.3",
                      "display": "MDAT_zusammenfuehren_Dritte"
                    }
                  ]
                }
              ]
            },
            {
              "type": "permit",
              "period": {
                "start": "2022-12-21T00:00:00+01:00",
                "end": "2052-12-21T00:00:00+01:00"
              },
              "code": [
                {
                  "coding": [
                    {
                      "code": "Rekontaktierung_Ergebnisse_erheblicher_Bedeutung",
                      "system": "https://ths-greifswald.de/fhir/CodeSystem/gics/Policy/MII",
                      "display": "Rekontaktierung des Betroffenen bei Ergebnissen von erheblicher Bedeutung"
                    }
                  ]
                },
                {
                  "coding": [
                    {
                      "code": "2.16.840.1.113883.3.1937.777.24.5.3.37",
                      "system": "urn:oid:2.16.840.1.113883.3.1937.777.24.5.3",
                      "display": "Rekontaktierung_Ergebnisse_erheblicher_Bedeutung"
                    }
                  ]
                }
              ]
            },
            {
              "type": "permit",
              "period": {
                "start": "2022-12-21T00:00:00+01:00",
                "end": "2052-12-21T00:00:00+01:00"
              },
              "code": [
                {
                  "coding": [
                    {
                      "code": "Rekontaktierung_Verknuepfung_Datenbanken",
                      "system": "https://ths-greifswald.de/fhir/CodeSystem/gics/Policy",
                      "display": "Rekontaktierung zur Verknüpfung von Patientendaten mit Daten anderer Datenbanken"
                    }
                  ]
                },
                {
                  "coding": [
                    {
                      "code": "2.16.840.1.113883.3.1937.777.24.5.3.27",
                      "system": "urn:oid:2.16.840.1.113883.3.1937.777.24.5.3",
                      "display": "Rekontaktierung_Verknuepfung_Datenbanken"
                    }
                  ]
                }
              ]
            },
            {
              "type": "permit",
              "period": {
                "start": "2022-12-21T00:00:00+01:00",
                "end": "2052-12-21T00:00:00+01:00"
              },
              "code": [
                {
                  "coding": [
                    {
                      "code": "Rekontaktierung_weitere_Erhebung",
                      "system": "https://ths-greifswald.de/fhir/CodeSystem/gics/Policy",
                      "display": "Rekontaktierung bezüglich Erhebung zusätzlicher Daten"
                    }
                  ]
                },
                {
                  "coding": [
                    {
                      "code": "2.16.840.1.113883.3.1937.777.24.5.3.28",
                      "system": "urn:oid:2.16.840.1.113883.3.1937.777.24.5.3",
                      "display": "Rekontaktierung_weitere_Erhebung"
                    }
                  ]
                }
              ]
            },
            {
              "type": "permit",
              "period": {
                "start": "2022-12-21T00:00:00+01:00",
                "end": "2052-12-21T00:00:00+01:00"
              },
              "code": [
                {
                  "coding": [
                    {
                      "code": "Rekontaktierung_weitere_Studien",
                      "system": "https://ths-greifswald.de/fhir/CodeSystem/gics/Policy",
                      "display": "Rekontaktierung bezüglich Information zu neuen Forschungsvorhaben oder Studien"
                    }
                  ]
                },
                {
                  "coding": [
                    {
                      "code": "2.16.840.1.113883.3.1937.777.24.5.3.29",
                      "system": "urn:oid:2.16.840.1.113883.3.1937.777.24.5.3",
                      "display": "Rekontaktierung_weitere_Studien"
                    }
                  ]
                }
              ]
            },
            {
              "type": "permit",
              "period": {
                "start": "2022-12-21T00:00:00+01:00",
                "end": "2052-12-21T00:00:00+01:00"
              },
              "code": [
                {
                  "coding": [
                    {
                      "code": "Rekontaktierung_Zusatzbefund",
                      "system": "https://ths-greifswald.de/fhir/CodeSystem/gics/Policy/MII",
                      "display": "Rekontaktierung bezüglich Zusatzbefund im Rahmen der am Standort dafür entwickelten Prozesse und der im Nutzungsantrag angegebenen Bedingungen"
                    }
                  ]
                },
                {
                  "coding": [
                    {
                      "code": "2.16.840.1.113883.3.1937.777.24.5.3.31",
                      "system": "urn:oid:2.16.840.1.113883.3.1937.777.24.5.3",
                      "display": "Rekontaktierung_Zusatzbefund"
                    }
                  ]
                }
              ]
            }
          ]
        }
      }
    },
    {
      "resource": {
        "resourceType": "Provenance",
        "id": "bd56b7e3-336c-49a6-aa31-1987b02f26cf",
        "meta": {
          "lastUpdated": "2022-12-21T00:00:00.000+01:00",
          "profile": [
            "https://ths-greifswald.de/fhir/StructureDefinition/gics/Provenance",
            "http://fhir.de/ConsentManagement/StructureDefinition/Provenance"
          ]
        },
        "entity": [
          {
            "role": "source",
            "what": {
              "reference": "DocumentReference/bf61b464-aea9-48c9-9f6c-38afc3cc78e7"
            }
          }
        ],
        "signature": [
          {
            "extension": [
              {
                "url": "https://ths-greifswald.de/fhir/StructureDefinition/gics/SignatureLocation",
                "valueString": "Greifswald"
              }
            ],
            "type": [
              {
                "code": "1.2.840.10065.1.12.1.7",
                "system": "urn:iso-astm:E1762-95:2013",
                "display": "Consent Signature"
              }
            ],
            "when": "2022-12-21T00:00:00.000+01:00",
            "who": {
              "reference": "Patient/71e9be08-86ef-4403-9770-fbbfcdd3589c",
              "display": "Pseudonym studypsn1"
            },
            "_data": {
              "extension": [
                {
                  "url": "http://hl7.org/fhir/StructureDefinition/data-absent-reason",
                  "valueCode": "error"
                }
              ]
            }
          },
          {
            "extension": [
              {
                "url": "https://ths-greifswald.de/fhir/StructureDefinition/gics/SignatureLocation",
                "valueString": "Greifswald"
              }
            ],
            "type": [
              {
                "code": "1.2.840.10065.1.12.1.5",
                "system": "urn:iso-astm:E1762-95:2013",
                "display": "Verification Signature"
              }
            ],
            "when": "2022-12-21T00:00:00.000+01:00",
            "who": {
              "display": "Dr. Stephen Strange"
            },
            "_data": {
              "extension": [
                {
                  "url": "http://hl7.org/fhir/StructureDefinition/data-absent-reason",
                  "valueCode": "error"
                }
              ]
            }
          }
        ],
        "target": [
          {
            "reference": "QuestionnaireResponse/bd56b7e3-336c-49a6-aa31-1987b02f26cf"
          }
        ],
        "recorded": "2023-02-28T16:59:47.654+01:00",
        "agent": [
          {
            "who": {
              "display": "https://ths-greifswald.de/gics"
            }
          }
        ]
      }
    },
    {
      "resource": {
        "resourceType": "DocumentReference",
        "id": "bf61b464-aea9-48c9-9f6c-38afc3cc78e7",
        "meta": {
          "lastUpdated": "2023-02-28T16:59:47.635+01:00",
          "profile": [
            "http://fhir.de/ConsentManagement/StructureDefinition/DocumentReference"
          ]
        },
        "status": "current",
        "subject": {
          "reference": "Patient/71e9be08-86ef-4403-9770-fbbfcdd3589c",
          "identifier": {
            "id": "71e9be08-86ef-4403-9770-fbbfcdd3589c",
            "type": {
              "coding": [
                {
                  "code": "ANON",
                  "system": "http://hl7.org/fhir/v2/0203/",
                  "display": "Anonymous identifier"
                }
              ]
            },
            "system": "https://ths-greifswald.de/fhir/gics/identifiers/Pseudonym",
            "value": "studypsn1"
          }
        },
        "description": "scan1.pdf",
        "content": [
          {
            "attachment": {
              "contentType": "application/pdf",
              "data": "Zm9yIGRlbW8gcHVycG9zZSBvbmx5"
            }
          }
        ]
      }
    },
    {
      "resource": {
        "resourceType": "Patient",
        "id": "71e9be08-86ef-4403-9770-fbbfcdd3589c",
        "meta": {
          "lastUpdated": "2023-02-28T16:59:47.321+01:00",
          "profile": [
            "https://ths-greifswald.de/fhir/StructureDefinition/epix/Patient",
            "http://fhir.de/ConsentManagement/StructureDefinition/Patient"
          ]
        },
        "identifier": [
          {
            "id": "71e9be08-86ef-4403-9770-fbbfcdd3589c",
            "type": {
              "coding": [
                {
                  "code": "ANON",
                  "system": "http://hl7.org/fhir/v2/0203/",
                  "display": "Anonymous identifier"
                }
              ]
            },
            "system": "https://ths-greifswald.de/fhir/gics/identifiers/Pseudonym",
            "value": "studypsn1"
          }
        ]
      }
    },
    {
      "resource": {
        "resourceType": "VerificationResult",
        "id": "ac53ca2a-4047-49c1-9250-126b2786fab7",
        "meta": {
          "lastUpdated": "2023-02-28T16:59:47.654+01:00",
          "profile": [
            "https://ths-greifswald.de/fhir/StructureDefinition/gics/VerificationResult/ConsentQualityControl"
          ]
        },
        "target": [
          {
            "reference": "QuestionnaireResponse/bd56b7e3-336c-49a6-aa31-1987b02f26cf"
          }
        ],
        "status": "validated",
        "statusDate": "2023-02-28T16:59:47+01:00",
        "validationType": {
          "text": "not_checked"
        }
      }
    }
  ]
}
