{
  "resourceType": "Parameters",
  "id": "Parameters-AddConsent-request-example-1",
  "parameter": [
    {
      "resource": {
        "id": "1",
        "resourceType": "Patient",
        "identifier": [
          {
            "type": {
              "coding": [
                {
                  "code": "ANON",
                  "system": "http://hl7.org/fhir/v2/0203/",
                  "display": "Anonymous identifier"
                }
              ]
            },
            "value": "studypsn1",
            "system": "https://ths-greifswald.de/fhir/gics/identifiers/Pseudonym",
            "id": "1"
          }
        ],
        "meta": {
          "lastUpdated": "2022-12-20T10:10:54.889+01:00",
          "profile": [
            "http://fhir.de/ConsentManagement/StructureDefinition/Patient"
          ]
        }
      },
      "name": "patient"
    },
    {
      "resource": {
        "item": [
          {
            "answer": [
              {
                "valueCoding": {
                  "code": "2.16.840.1.113883.3.1937.777.24.5.2.2",
                  "system": "urn:oid:2.16.840.1.113883.3.1937.777.24.5.2",
                  "display": "ungültig"
                }
              }
            ],
            "linkId": "KKDAT_prospektiv_uebertragen_speichern_nutzen|1.8"
          },
          {
            "answer": [
              {
                "valueCoding": {
                  "code": "2.16.840.1.113883.3.1937.777.24.5.2.1",
                  "system": "urn:oid:2.16.840.1.113883.3.1937.777.24.5.2",
                  "display": "gültig"
                }
              }
            ],
            "linkId": "PATDAT_erheben_speichern_nutzen|1.8"
          },
          {
            "answer": [
              {
                "valueCoding": {
                  "code": "2.16.840.1.113883.3.1937.777.24.5.2.1",
                  "system": "urn:oid:2.16.840.1.113883.3.1937.777.24.5.2",
                  "display": "gültig"
                }
              }
            ],
            "linkId": "Rekontaktierung_Ergaenzungen|1.7"
          },
          {
            "answer": [
              {
                "valueCoding": {
                  "code": "2.16.840.1.113883.3.1937.777.24.5.2.2",
                  "system": "urn:oid:2.16.840.1.113883.3.1937.777.24.5.2",
                  "display": "ungültig"
                }
              }
            ],
            "linkId": "KKDAT_retrospektiv_uebertragen_speichern_nutzen|1.8"
          },
          {
            "answer": [
              {
                "valueCoding": {
                  "code": "2.16.840.1.113883.3.1937.777.24.5.2.2",
                  "system": "urn:oid:2.16.840.1.113883.3.1937.777.24.5.2",
                  "display": "ungültig"
                }
              }
            ],
            "linkId": "BIOMAT_erheben_lagern_nutzen|1.8"
          },
          {
            "answer": [
              {
                "valueCoding": {
                  "code": "2.16.840.1.113883.3.1937.777.24.5.2.1",
                  "system": "urn:oid:2.16.840.1.113883.3.1937.777.24.5.2",
                  "display": "gültig"
                }
              }
            ],
            "linkId": "Rekontaktierung_Zusatzbefund|1.8"
          },
          {
            "answer": [
              {
                "valueCoding": {
                  "code": "2.16.840.1.113883.3.1937.777.24.5.2.2",
                  "system": "urn:oid:2.16.840.1.113883.3.1937.777.24.5.2",
                  "display": "ungültig"
                }
              }
            ],
            "linkId": "BIOMAT_Zusatzentnahme|1.8"
          }
        ],
        "subject": {
          "reference": "Patient/1",
          "display": "Pseudonym studypsn1"
        },
        "author": {
          "reference": "Patient/1",
          "display": "Pseudonym studypsn1"
        },
        "resourceType": "QuestionnaireResponse",
        "status": "completed",
        "authored": "2022-12-21T00:00:00+01:00",
        "id": "2",
        "language": "DE",
        "source": {
          "reference": "Patient/1",
          "display": "Pseudonym studypsn1"
        },
        "questionnaire": "https://ths-greifswald.de/fhir/gics/QuestionnaireComposed/MII/Patienteneinwilligung+MII|1.6.d",
        "meta": {
          "lastUpdated": "2022-12-21T18:41:18.919+01:00",
          "profile": [
            "http://fhir.de/ConsentManagement/StructureDefinition/QuestionnaireResponse"
          ]
        }
      },
      "name": "questionnaireResponse"
    },
    {
      "resource": {
        "id": "3",
        "subject": {
          "reference": "Patient/1",
          "identifier": {
            "type": {
              "coding": [
                {
                  "code": "ANON",
                  "system": "http://hl7.org/fhir/v2/0203/",
                  "display": "Anonymous identifier"
                }
              ]
            },
            "value": "Pseudonym studypsn1",
            "system": "https://ths-greifswald.de/fhir/gics/identifiers/Pseudonym",
            "id": "1"
          }
        },
        "content": [
          {
            "attachment": {
              "contentType": "application/pdf",
              "data": "Zm9yIGRlbW8gcHVycG9zZSBvbmx5"
            }
          }
        ],
        "resourceType": "DocumentReference",
        "description": "scan1.pdf",
        "meta": {
          "lastUpdated": "2022-12-21T18:37:11.090+01:00",
          "profile": [
            "http://fhir.de/ConsentManagement/StructureDefinition/DocumentReference"
          ]
        }
      },
      "name": "documentReference"
    },
    {
      "valueString": "MII",
      "name": "domain"
    },
    {
      "resource": {
        "target": [
          {
            "reference": "QuestionnaireResponse/2"
          }
        ],
        "signature": [
          {
            "onBehalfOf": {
              "display": "Greifswald"
            },
            "when": "2022-12-21T00:00:00.000+01:00",
            "type": [
              {
                "code": "1.2.840.10065.1.12.1.7",
                "system": "urn:iso-astm:E1762-95:2013",
                "display": "Consent Signature"
              }
            ],
            "who": {
              "reference": "Patient/1",
              "display": "Pseudonym studypsn1"
            },
            "_data": {
              "extension": [
                {
                  "url": "http://hl7.org/fhir/StructureDefinition/data-absent-reason",
                  "valueCode": "error"
                }
              ]
            }
          },
          {
            "onBehalfOf": {
              "display": "Greifswald"
            },
            "when": "2022-12-21T00:00:00.000+01:00",
            "type": [
              {
                "code": "1.2.840.10065.1.12.1.5",
                "system": "urn:iso-astm:E1762-95:2013",
                "display": "Verification Signature"
              }
            ],
            "who": {
              "display": "Dr. Stephen Strange"
            },
            "_data": {
              "extension": [
                {
                  "url": "http://hl7.org/fhir/StructureDefinition/data-absent-reason",
                  "valueCode": "error"
                }
              ]
            }
          }
        ],
        "id": "fa414092-934e-45eb-a827-6c96b1371c29",
        "entity": [
          {
            "role": "source",
            "what": {
              "reference": "DocumentReference/3"
            }
          }
        ],
        "recorded": "2022-12-21T18:39:02.076+01:00",
        "resourceType": "Provenance",
        "agent": [
          {
            "who": {
              "display": "https://ths-greifswald.de/gics"
            }
          }
        ],
        "meta": {
          "profile": [
            "http://fhir.de/ConsentManagement/StructureDefinition/Provenance"
          ]
        }
      },
      "name": "provenance"
    }
  ]
}
